Folder: AMD_Power_Scaling/AMD_Adaptive_Battery_Charging/DATASETS

Note: AMD_Adaptive_Battery_Charging/README.md
# AMD Adaptive Battery Charging Project

## Usage:
### To Install ACRLF Environment
#### pip3 install -e ACRLF

### to Test ACRLF Environment
#### python3 ACRLF/_ACRLF/envs/ACRLF_env.py

### Packages
#### d3rlpy := https://github.com/takuseno/d3rlpy
##### commit := [32e845e]b2feb0763275501ed8ee677c62ae19ca5

#### BCQ := https://github.com/sfujim/BCQ/commits/master
##### commit := [4876f7e]5afa9eb2981feec5daf67202514477518

File: data.csv
Day,Date,Time,Charging Status,State of Charge,Battery Temperature (C),Battery Capacity (mAh),Charge Rate (mW), Time to Discharge, Battery Voltage (mV), Cycle Count, Battery Health (%)
3,01/01/1402,14:51:30,1,97,-21.16,50160,0,-2,12928,5,95.3975
3,01/01/1402,14:56:48,1,97,-21.16,50160,0,-2,12928,5,95.3975
3,01/01/1402,15:03:26,1,97,-20.16,50160,0,-2,12927,5,95.3975
3,01/01/1402,15:05:50,1,97,-21.16,50160,0,-2,12927,5,95.3975
3,01/01/1402,15:13:25,1,97,-21.16,50160,0,-2,12928,5,95.3975
3,01/01/1402,15:14:57,1,97,-21.16,50160,0,-2,12928,5,95.3975
3,01/01/1402,15:15:15,1,97,-22.16,50160,0,-2,12927,5,95.3975
3,01/01/1402,15:16:47,1,97,-21.16,50160,0,-2,12927,5,95.3975
3,01/01/1402,15:28:13,1,97,-22.16,50160,0,-2,12928,5,95.3975
3,01/01/1402,15:31:29,1,97,-21.16,50160,0,-2,12927,5,95.3975
3,01/01/1402,15:31:48,1,97,-21.16,50160,0,-2,12927,5,95.3975
4,02/01/1402,12:01:09,1,96,-20.16,50240,0,-2,12922,5,95.5496
4,02/01/1402,14:12:43,1,96,-21.16,50240,0,-2,12922,5,95.5496
4,02/01/1402,14:17:21,857,1,96,[],-20.16,50240,0,-2,12922,5,95.5496
4,02/01/1402,14:21:16,861,1,96,180,-19.16,50240,0,-2,12922,5,95.5496
4,02/01/1402,14:22:56,862,1,96,180,-19.16,50240,0,-2,12922,5,95.5496
4,02/01/1402,14:25:28,865,1,96,180,-20.16,50240,0,-2,12922,5,95.5496
4,02/01/1402,14:28:51,868,1,96,180,-19.16,50240,0,-2,12922,5,95.5496
4,02/01/1402,14:28:57,868,1,96,180,-20.16,50240,0,-2,12922,5,95.5496